# ING Filter Throughput Data
# Serial Number : 227
# Filtername    : WFCED337
# Filtersystem  : Narrow Band
# Passband      : Unknown
# FWHM          : 80
# Cosmetics     : Very minor marks, but no fingerprints within clear aperture.
# Measured      : 2017-02-14 14:35:26
# Wavelength Throughput
# nm %
640 -0.00102329
640.1 -0.000309022
640.2 -0.000168579
640.3 -0.000464441
640.4 -0.000197106
640.5 -0.000733521
640.6 -0.000126969
640.7 -0.00052288
640.8 -0.000339596
640.9 -0.000226742
641 1.42e-05
641.1 -0.000198957
641.2 -0.000711533
641.3 -0.000170782
641.4 -2.85e-05
641.5 1.43e-05
641.6 -0.000414288
641.7 -0.000429306
641.8 -0.000401401
641.9 -0.000645658
642 -0.000201163
642.1 -0.000201506
642.2 -0.000504292
642.3 4.32e-05
642.4 -8.66e-05
642.5 0.00011574
642.6 -0.000159251
642.7 -0.000593777
642.8 -0.000391718
642.9 -0.000159788
643 -0.00020361
643.1 -0.000334718
643.2 -0.000598136
643.3 -0.000554746
643.4 -8.77e-05
643.5 -0.000205108
643.6 -0.000381295
643.7 -0.000454552
643.8 -0.000646827
643.9 -0.000603301
644 -0.000854138
644.1 -0.000811396
644.2 -0.000280828
644.3 -0.000813321
644.4 -0.000458596
644.5 -0.000415109
644.6 -0.000698007
644.7 -0.000208095
644.8 -0.000476263
644.9 -0.000134059
645 -0.000567043
645.1 -1.49e-05
645.2 0.000194627
645.3 -0.000269811
645.4 -0.000614497
645.5 -0.000270241
645.6 -0.000496001
645.7 -0.000316329
645.8 -1.51e-05
645.9 -0.000241612
646 -0.000754931
646.1 6.05e-05
646.2 0.000151486
646.3 0.000394619
646.4 -0.000121527
646.5 -0.000456291
646.6 -0.000441631
646.7 0.000335411
646.8 0.00045799
646.9 -0.00033621
647 0.000443819
647.1 0.000566736
647.2 0.000598098
647.3 0.000384028
647.4 6.15e-05
647.5 0.000769779
647.6 0.00038537
647.7 0.000463476
647.8 0.000865046
647.9 0.000139157
648 0.000914128
648.1 0.000465617
648.2 0.000264205
648.3 0.00125999
648.4 0.00101255
648.5 0.00081093
648.6 0.000937605
648.7 0.000874918
648.8 0.00101713
648.9 0.00117667
649 0.00133556
649.1 0.00130559
649.2 0.00114867
649.3 0.00176359
649.4 0.00105786
649.5 0.00164422
649.6 0.00117129
649.7 0.00155276
649.8 0.00176151
649.9 0.00138239
650 0.00229225
650.1 0.00191101
650.2 0.00186537
650.3 0.00255646
650.4 0.00185395
650.5 0.00269135
650.6 0.00274094
650.7 0.00303326
650.8 0.00361697
650.9 0.00342858
651 0.00356331
651.1 0.00419445
651.2 0.00515255
651.3 0.00399551
651.4 0.00478998
651.5 0.00552986
651.6 0.00511747
651.7 0.00613039
651.8 0.00589388
651.9 0.00629334
652 0.00571567
652.1 0.00696615
652.2 0.00803867
652.3 0.00891043
652.4 0.00848702
652.5 0.00941653
652.6 0.0109505
652.7 0.0102391
652.8 0.0115528
652.9 0.0111726
653 0.0111654
653.1 0.0120276
653.2 0.0126003
653.3 0.0131472
653.4 0.0144061
653.5 0.0147287
653.6 0.0158069
653.7 0.0165301
653.8 0.0170105
653.9 0.0184457
654 0.0198029
654.1 0.0206286
654.2 0.022277
654.3 0.023681
654.4 0.0244925
654.5 0.0254443
654.6 0.0271925
654.7 0.0290674
654.8 0.0307856
654.9 0.0323014
655 0.0344788
655.1 0.0337496
655.2 0.0380697
655.3 0.0410016
655.4 0.0454872
655.5 0.0463068
655.6 0.0486484
655.7 0.0537688
655.8 0.0560623
655.9 0.0596881
656 0.0641787
656.1 0.0683077
656.2 0.0733266
656.3 0.079352
656.4 0.0828746
656.5 0.0885847
656.6 0.0916578
656.7 0.0985014
656.8 0.107052
656.9 0.117477
657 0.126116
657.1 0.134193
657.2 0.143326
657.3 0.15518
657.4 0.166573
657.5 0.176934
657.6 0.196043
657.7 0.209139
657.8 0.227086
657.9 0.244185
658 0.266284
658.1 0.286636
658.2 0.310788
658.3 0.338173
658.4 0.370025
658.5 0.410781
658.6 0.444898
658.7 0.492315
658.8 0.531971
658.9 0.586855
659 0.64498
659.1 0.710017
659.2 0.786406
659.3 0.86939
659.4 0.966426
659.5 1.07114
659.6 1.17734
659.7 1.31142
659.8 1.44948
659.9 1.629
660 1.80914
660.1 2.03758
660.2 2.28307
660.3 2.56786
660.4 2.86254
660.5 3.22449
660.6 3.66496
660.7 4.15182
660.8 4.68649
660.9 5.32586
661 6.07864
661.1 6.91199
661.2 7.83291
661.3 8.89671
661.4 10.1506
661.5 11.6052
661.6 13.2227
661.7 15.1406
661.8 17.3397
661.9 19.6953
662 22.2932
662.1 25.2429
662.2 28.5928
662.3 32.2651
662.4 36.0435
662.5 40.2969
662.6 44.8117
662.7 49.1649
662.8 53.4252
662.9 58.025
663 62.2924
663.1 66.4997
663.2 70.304
663.3 73.8389
663.4 77.012
663.5 79.7055
663.6 81.8951
663.7 83.7637
663.8 85.3361
663.9 86.4248
664 87.3414
664.1 87.9092
664.2 88.569
664.3 88.6917
664.4 88.8938
664.5 88.9849
664.6 88.9371
664.7 88.7627
664.8 88.7138
664.9 88.6852
665 88.4427
665.1 88.1971
665.2 88.1554
665.3 87.9744
665.4 87.7531
665.5 87.6161
665.6 87.591
665.7 87.3743
665.8 87.3882
665.9 87.1954
666 87.0676
666.1 86.8962
666.2 86.8494
666.3 86.8028
666.4 86.6557
666.5 86.5306
666.6 86.5868
666.7 86.5175
666.8 86.3095
666.9 86.2673
667 86.2875
667.1 86.0215
667.2 85.938
667.3 85.9625
667.4 85.8443
667.5 85.6826
667.6 85.4984
667.7 85.25
667.8 85.0142
667.9 84.6194
668 84.5797
668.1 84.1063
668.2 83.8093
668.3 83.4072
668.4 82.7768
668.5 82.1809
668.6 81.498
668.7 80.7797
668.8 79.8727
668.9 78.9129
669 77.6478
669.1 76.6076
669.2 75.3056
669.3 73.6975
669.4 72.1364
669.5 70.4254
669.6 68.534
669.7 66.3712
669.8 64.1148
669.9 61.9178
670 59.4876
670.1 57.1646
670.2 54.558
670.3 51.8609
670.4 49.1229
670.5 46.2519
670.6 43.4829
670.7 40.8543
670.8 38.1608
670.9 35.6126
671 32.9712
671.1 30.5601
671.2 28.2256
671.3 25.9141
671.4 23.6808
671.5 21.7787
671.6 19.9514
671.7 18.2392
671.8 16.5193
671.9 15.0591
672 13.7046
672.1 12.3416
672.2 11.1461
672.3 10.1435
672.4 9.22533
672.5 8.33934
672.6 7.54049
672.7 6.79358
672.8 6.17102
672.9 5.56865
673 4.97938
673.1 4.55103
673.2 4.12998
673.3 3.74648
673.4 3.38158
673.5 3.04755
673.6 2.76527
673.7 2.50328
673.8 2.269
673.9 2.06821
674 1.88422
674.1 1.71812
674.2 1.56177
674.3 1.41337
674.4 1.29816
674.5 1.17718
674.6 1.07396
674.7 0.987106
674.8 0.901062
674.9 0.819759
675 0.756405
675.1 0.688518
675.2 0.63733
675.3 0.578273
675.4 0.525842
675.5 0.495498
675.6 0.449012
675.7 0.422717
675.8 0.379458
675.9 0.356662
676 0.325852
676.1 0.299333
676.2 0.275357
676.3 0.257821
676.4 0.239953
676.5 0.220075
676.6 0.202698
676.7 0.190358
676.8 0.17931
676.9 0.164432
677 0.148888
677.1 0.14136
677.2 0.132564
677.3 0.12147
677.4 0.112205
677.5 0.108386
677.6 0.0992121
677.7 0.0944289
677.8 0.088332
677.9 0.0805454
678 0.0755487
678.1 0.0688929
678.2 0.0654529
678.3 0.0612484
678.4 0.0569871
678.5 0.0550802
678.6 0.0507956
678.7 0.0482946
678.8 0.0446788
678.9 0.0421102
679 0.0392671
679.1 0.0381401
679.2 0.0348291
679.3 0.034442
679.4 0.0306433
679.5 0.0291258
679.6 0.0284111
679.7 0.0255587
679.8 0.0250537
679.9 0.0230033
680 0.0225605
680.1 0.0211638
680.2 0.0206479
680.3 0.0186832
680.4 0.0184037
680.5 0.0175621
680.6 0.0157807
680.7 0.01521
680.8 0.0138209
680.9 0.013089
681 0.0116137
681.1 0.0113363
681.2 0.0115096
681.3 0.0111309
681.4 0.00989144
681.5 0.0101614
681.6 0.00936922
681.7 0.00854815
681.8 0.00912801
681.9 0.00790881
682 0.00701989
682.1 0.00781087
682.2 0.00713282
682.3 0.00654309
682.4 0.00612596
682.5 0.00593067
682.6 0.00555782
682.7 0.00555931
682.8 0.00540882
682.9 0.00505722
683 0.00474633
683.1 0.00460458
683.2 0.00412385
683.3 0.00473428
683.4 0.00378227
683.5 0.00390705
683.6 0.00352811
683.7 0.00359591
683.8 0.00309264
683.9 0.00255661
684 0.00309037
684.1 0.00241289
684.2 0.00291003
684.3 0.00207037
684.4 0.00235976
684.5 0.00176548
684.6 0.00180123
684.7 0.00168141
684.8 0.00138737
684.9 0.00181209
685 0.000997648
685.1 0.0014392
685.2 0.000803213
685.3 0.00118843
685.4 0.0014744
685.5 0.0018079
685.6 0.0013846
685.7 0.000928209
685.8 0.00133854
685.9 0.000952855
686 0.000577244
686.1 0.00116069
686.2 0.00131889
686.3 0.00104788
686.4 0.00125555
686.5 0.00104282
686.6 0.00028173
686.7 0.000676641
686.8 0.000759507
686.9 0.000444749
687 0.000782708
687.1 0.0010267
687.2 0.000922633
687.3 0.000891144
687.4 4.71e-05
687.5 0.000615945
687.6 0.000166651
687.7 0.000633489
687.8 0.000120071
687.9 0.000434707
688 0.000303187
688.1 0.000402469
688.2 0.000784424
688.3 0.000393693
688.4 0.000284592
688.5 0.000323104
688.6 0.00049962
688.7 0.000640132
688.8 0.000378314
688.9 0.000809562
689 0.000573169
689.1 0.000166229
689.2 0.000552404
689.3 0.000193612
689.4 0.000311153
689.5 0.000221209
689.6 -0.000209042
689.7 0.000197152
689.8 -0.000171436
689.9 -9.27e-05
690 -0.000146583
